File: Result/Raw data/XRD_550C_raw/SAMPLE_5_COPPER_1HOUR_550C.XRDML striped k alpha 2.xy
5.0150 1654.5
5.0660 1596.4
5.1170 1651.1
5.1680 1619.6
5.2190 1559.3
5.2700 1561.5
5.3210 1541.5
5.3720 1569.2
5.4230 1514.6
5.4740 1509.5
5.5250 1479.1
5.5760 1486.6
5.6270 1487.4
5.6780 1486.0
5.7290 1447.5
5.7800 1434.3
5.8310 1434.5
5.8820 1415.5
5.9330 1410.9
5.9840 1448.6
6.0350 1418.1
6.0860 1422.2
6.1370 1385.5
6.1880 1354.9
6.2390 1366.9
6.2900 1352.4
6.3410 1365.6
6.3920 1336.0
6.4430 1326.3
6.4940 1300.9
6.5450 1312.5
6.5960 1306.2
6.6470 1289.2
6.6980 1313.5
6.7490 1232.3
6.8000 1261.8
6.8510 1255.7
6.9020 1262.2
6.9530 1220.3
7.0040 1246.5
7.0550 1215.6
7.1060 1205.2
7.1570 1162.4
7.2080 1212.9
7.2590 1164.5
7.3100 1172.9
7.3610 1190.3
7.4120 1154.2
7.4630 1177.7
7.5140 1149.9
7.5650 1145.8
7.6160 1094.5
7.6670 1110.5
7.7180 1139.0
7.7690 1131.9
7.8200 1099.9
7.8710 1074.4
7.9220 1077.9
7.9730 1093.5
8.0240 1105.9
8.0750 1075.6
8.1260 1065.6
8.1770 1071.8
8.2280 1048.2
8.2790 1068.6
8.3300 1043.1
8.3810 1059.0
8.4320 1047.8
8.4830 1050.5
8.5340 1047.0
8.5850 1034.6
8.6360 1046.9
8.6870 1046.1
8.7380 995.1
8.7890 1015.4
8.8400 1021.8
8.8910 1017.2
8.9420 1019.1
8.9930 997.8
9.0440 1007.6
9.0950 1002.1
9.1460 990.6
9.1970 986.4
9.2480 966.2
9.2990 975.2
9.3500 973.4
9.4010 961.1
9.4520 980.2
9.5030 932.9
9.5540 957.7
9.6050 934.9
9.6560 960.0
9.7070 957.8
9.7580 966.0
9.8090 946.9
9.8600 946.9
9.9110 931.9
9.9620 972.4
10.0130 955.5
10.0640 944.6
10.1150 935.8
10.1660 968.2
10.2170 940.2
10.2680 940.2
10.3190 956.4
10.3700 940.1
10.4210 961.0
10.4720 922.6
10.5230 943.5
10.5740 909.9
10.6250 935.3
10.6760 911.6
10.7270 914.6
10.7780 928.1
10.8290 924.5
10.8800 922.4
10.9310 925.2
10.9820 939.4
11.0330 920.5
11.0840 948.4
11.1350 940.5
11.1860 917.8
11.2370 921.4
11.2880 920.9
11.3390 925.9
11.3900 942.2
11.4410 928.3
11.4920 940.2
11.5430 950.7
11.5940 917.0
11.6450 905.1
11.6960 881.9
11.7470 892.9
11.7980 918.6
11.8490 925.8
11.9000 903.3
11.9510 904.2
12.0020 925.2
12.0530 906.8
12.1040 899.4
12.1550 890.2
12.2060 920.8
12.2570 916.3
12.3080 906.8
12.3590 920.5
12.4100 919.6
12.4610 880.4
12.5120 923.4
12.5630 901.9
12.6140 891.4
12.6650 895.8
12.7160 914.0
12.7670 892.0
12.8180 913.1
12.8690 899.0
12.9200 916.6
12.9710 893.5
13.0220 907.8
13.0730 906.6
13.1240 899.5
13.1750 904.2
13.2260 869.4
13.2770 890.5
13.3280 890.7
13.3790 899.1
13.4300 903.0
13.4810 879.8
13.5320 909.3
13.5830 934.8
13.6340 890.8
13.6850 884.7
13.7360 908.6
13.7870 874.2
13.8380 898.9
13.8890 878.6
13.9400 918.5
13.9910 896.6
14.0420 928.1
14.0930 880.8
14.1440 946.4
14.1950 901.6
14.2460 907.4
14.2970 899.1
14.3480 912.7
14.3990 877.7
14.4500 897.9
14.5010 908.3
14.5520 922.2
14.6030 887.6
14.6540 924.9
14.7050 883.9
14.7560 894.1
14.8070 900.6
14.8580 935.6
14.9090 923.9
14.9600 896.9
15.0110 912.3
15.0620 890.5
15.1130 946.7
15.1640 919.2
15.2150 918.2
15.2660 908.6
15.3170 902.9
15.3680 894.2
15.4190 893.5
15.4700 890.2
15.5210 897.3
15.5720 880.5
15.6230 890.4
15.6740 908.1
15.7250 918.9
15.7760 926.1
15.8270 906.8
15.8780 930.4
15.9290 911.4
15.9800 923.6
16.0310 912.1
16.0820 914.8
16.1330 913.2
16.1840 949.7
16.2350 917.1
16.2860 915.9
16.3370 912.1
16.3880 927.3
16.4390 950.3
16.4900 896.8
16.5410 884.1
16.5920 922.4
16.6430 916.5
16.6940 917.2
16.7450 929.8
16.7960 923.1
16.8470 898.8
16.8980 922.2
16.9490 891.4
17.0000 925.5
17.0510 938.5
17.1020 915.1
17.1530 933.0
17.2040 940.0
17.2550 954.8
17.3060 945.5
17.3570 919.5
17.4080 929.1
17.4590 950.6
17.5100 937.1
17.5610 921.4
17.6120 943.3
17.6630 949.3
17.7140 955.6
17.7650 913.9
17.8160 951.4
17.8670 921.6
17.9180 953.1
17.9690 952.9
18.0200 941.1
18.0710 928.1
18.1220 938.0
18.1730 958.2
18.2240 963.6
18.2750 962.4
18.3260 957.8
18.3770 960.2
18.4280 964.9
18.4790 970.9
18.5300 968.9
18.5810 948.2
18.6320 957.2
18.6830 989.7
18.7340 976.1
18.7850 946.1
18.8360 990.4
18.8870 997.8
18.9380 958.0
18.9890 956.9
19.0400 965.9
19.0910 950.6
19.1420 958.8
19.1930 982.2
19.2440 978.2
19.2950 977.5
19.3460 967.1
19.3970 962.1
19.4480 956.8
19.4990 983.0
19.5500 980.6
19.6010 976.9
19.6520 1013.2
19.7030 957.2
19.7540 974.1
19.8050 953.0
19.8560 995.4
19.9070 984.9
19.9580 1005.1
20.0090 981.1
20.0600 969.8
20.1110 1000.7
20.1620 1002.8
20.2130 991.0
20.2640 976.3
20.3150 1038.5
20.3660 1003.4
20.4170 980.7
20.4680 1005.6
20.5190 980.6
20.5700 1002.2
20.6210 994.7
20.6720 1017.9
20.7230 1002.4
20.7740 977.4
20.8250 1017.2
20.8760 981.2
20.9270 996.6
20.9780 1011.2
21.0290 996.1
21.0800 1002.9
21.1310 995.2
21.1820 1000.5
21.2330 1016.3
21.2840 1028.2
21.3350 997.2
21.3860 1009.6
21.4370 1027.5
21.4880 1034.3
21.5390 1031.2
21.5900 1015.5
21.6410 1015.9
21.6920 1042.8
21.7430 984.6
21.7940 1031.8
21.8450 1014.0
21.8960 1024.1
21.9470 1034.2
21.9980 1042.2
22.0490 1024.4
22.1000 1017.5
22.1510 1008.6
22.2020 1019.2
22.2530 1020.5
22.3040 1035.5
22.3550 1049.2
22.4060 1035.9
22.4570 1014.1
22.5080 1045.6
22.5590 1028.5
22.6100 1047.6
22.6610 1056.6
22.7120 1030.0
22.7630 1061.1
22.8140 1077.2
22.8650 1046.0
22.9160 1042.6
22.9670 1079.4
23.0180 1064.5
23.0690 1070.7
23.1200 1084.9
23.1710 1046.1
23.2220 1089.4
23.2730 1065.8
23.3240 1070.6
23.3750 1063.6
23.4260 1082.6
23.4770 1062.1
23.5280 1023.6
23.5790 1070.8
23.6300 1105.9
23.6810 1078.0
23.7320 1066.7
23.7830 1086.2
23.8340 1081.7
23.8850 1064.3
23.9360 1023.9
23.9870 1106.2
24.0380 1070.1
24.0890 1086.4
24.1400 1081.2
24.1910 1107.9
24.2420 1069.4
24.2930 1072.4
24.3440 1121.1
24.3950 1115.4
24.4460 1096.4
24.4970 1081.4
24.5480 1075.9
24.5990 1120.5
24.6500 1118.4
24.7010 1142.4
24.7520 1088.2
24.8030 1063.4
24.8540 1063.9
24.9050 1104.4
24.9560 1124.1
25.0070 1109.3
25.0580 1076.2
25.1090 1096.2
25.1600 1134.2
25.2110 1104.3
25.2620 1096.6
25.3130 1127.4
25.3640 1119.6
25.4150 1127.1
25.4660 1105.6
25.5170 1133.9
25.5680 1098.4
25.6190 1124.3
25.6700 1151.5
25.7210 1118.8
25.7720 1144.9
25.8230 1088.3
25.8740 1120.1
25.9250 1157.9
25.9760 1126.8
26.0270 1154.0
26.0780 1120.9
26.1290 1150.4
26.1800 1131.9
26.2310 1121.7
26.2820 1163.4
26.3330 1166.5
26.3840 1124.2
26.4350 1146.4
26.4860 1141.6
26.5370 1141.9
26.5880 1164.8
26.6390 1116.1
26.6900 1155.6
26.7410 1173.2
26.7920 1184.4
26.8430 1129.4
26.8940 1158.5
26.9450 1156.8
26.9960 1166.4
27.0470 1175.6
27.0980 1176.3
27.1490 1172.9
27.2000 1178.5
27.2510 1154.4
27.3020 1160.4
27.3530 1176.2
27.4040 1162.1
27.4550 1206.1
27.5060 1189.5
27.5570 1190.3
27.6080 1174.7
27.6590 1195.5
27.7100 1185.8
27.7610 1199.4
27.8120 1169.5
27.8630 1176.8
27.9140 1197.6
27.9650 1205.9
28.0160 1188.4
28.0670 1188.8
28.1180 1200.9
28.1690 1204.8
28.2200 1194.7
28.2710 1199.1
28.3220 1206.5
28.3730 1191.4
28.4240 1190.9
28.4750 1174.4
28.5260 1217.5
28.5770 1221.9
28.6280 1198.5
28.6790 1289.8
28.7300 1191.6
28.7810 1228.9
28.8320 1217.7
28.8830 1208.2
28.9340 1248.0
28.9850 1183.6
29.0360 1208.4
29.0870 1204.6
29.1380 1207.1
29.1890 1212.3
29.2400 1240.2
29.2910 1234.2
29.3420 1209.2
29.3930 1219.8
29.4440 1221.9
29.4950 1207.3
29.5460 1235.6
29.5970 1211.8
29.6480 1273.7
29.6990 1257.1
29.7500 1241.9
29.8010 1260.1
29.8520 1234.5
29.9030 1242.1
29.9540 1226.3
30.0050 1283.6
30.0560 1247.3
30.1070 1240.6
30.1580 1234.2
30.2090 1226.8
30.2600 1232.9
30.3110 1239.6
30.3620 1270.5
30.4130 1221.5
30.4640 1240.7
30.5150 1290.7
30.5660 1267.7
30.6170 1221.3
30.6680 1236.1
30.7190 1228.6
30.7700 1248.6
30.8210 1250.3
30.8720 1258.7
30.9230 1247.9
30.9740 1221.5
31.0250 1253.6
31.0760 1246.9
31.1270 1322.5
31.1780 1240.0
31.2290 1250.7
31.2800 1256.8
31.3310 1258.9
31.3820 1276.2
31.4330 1255.2
31.4840 1306.4
31.5350 1206.1
31.5860 1271.3
31.6370 1282.6
31.6880 1275.9
31.7390 1282.8
31.7900 1209.1
31.8410 1250.4
31.8920 1275.8
31.9430 1249.3
31.9940 1291.5
32.0450 1245.6
32.0960 1237.4
32.1470 1281.2
32.1980 1279.6
32.2490 1272.1
32.3000 1269.4
32.3510 1273.6
32.4020 1286.8
32.4530 1279.6
32.5040 1312.6
32.5550 1247.2
32.6060 1268.0
32.6570 1305.4
32.7080 1310.7
32.7590 1302.6
32.8100 1260.5
32.8610 1285.8
32.9120 1264.6
32.9630 1296.9
33.0140 1305.2
33.0650 1266.5
33.1160 1299.5
33.1670 1293.1
33.2180 1309.4
33.2690 1275.4
33.3200 1304.8
33.3710 1283.1
33.4220 1307.4
33.4730 1310.9
33.5240 1286.0
33.5750 1267.9
33.6260 1306.4
33.6770 1303.8
33.7280 1285.5
33.7790 1325.0
33.8300 1328.4
33.8810 1328.7
33.9320 1285.4
33.9830 1324.2
34.0340 1346.3
34.0850 1320.8
34.1360 1314.7
34.1870 1321.6
34.2380 1323.4
34.2890 1303.5
34.3400 1363.1
34.3910 1301.5
34.4420 1322.2
34.4930 1363.1
34.5440 1315.4
34.5950 1360.5
34.6460 1338.8
34.6970 1315.2
34.7480 1312.5
34.7990 1341.7
34.8500 1292.6
34.9010 1322.4
34.9520 1339.2
35.0030 1333.1
35.0540 1298.9
35.1050 1341.5
35.1560 1345.7
35.2070 1351.8
35.2580 1378.7
35.3090 1325.3
35.3600 1305.6
35.4110 1307.3
35.4620 1354.8
35.5130 1378.2
35.5640 1346.9
35.6150 1335.4
35.6660 1326.4
35.7170 1366.0
35.7680 1353.2
35.8190 1339.3
35.8700 1361.9
35.9210 1358.1
35.9720 1409.6
36.0230 1378.1
36.0740 1379.0
36.1250 1353.5
36.1760 1335.6
36.2270 1322.4
36.2780 1349.6
36.3290 1345.9
36.3800 1340.6
36.4310 1358.2
36.4820 1387.9
36.5330 1406.5
36.5840 1420.1
36.6350 1369.5
36.6860 1318.6
36.7370 1352.4
36.7880 1326.2
36.8390 1347.4
36.8900 1357.4
36.9410 1387.6
36.9920 1391.2
37.0430 1350.1
37.0940 1381.0
37.1450 1394.5
37.1960 1361.8
37.2470 1375.8
37.2980 1349.1
37.3490 1375.4
37.4000 1356.2
37.4510 1387.5
37.5020 1353.8
37.5530 1411.9
37.6040 1407.9
37.6550 1381.1
37.7060 1389.7
37.7570 1427.8
37.8080 1397.4
37.8590 1394.9
37.9100 1405.4
37.9610 1394.8
38.0120 1398.7
38.0630 1369.5
38.1140 1398.1
38.1650 1408.4
38.2160 1409.8
38.2670 1385.4
38.3180 1409.1
38.3690 1372.3
38.4200 1427.2
38.4710 1430.4
38.5220 1415.0
38.5730 1408.1
38.6240 1392.3
38.6750 1411.2
38.7260 1425.4
38.7770 1392.0
38.8280 1407.5
38.8790 1429.5
38.9300 1442.6
38.9810 1467.5
39.0320 1427.0
39.0830 1415.6
39.1340 1446.2
39.1850 1470.8
39.2360 1395.1
39.2870 1426.9
39.3380 1423.7
39.3890 1432.8
39.4400 1438.5
39.4910 1443.1
39.5420 1410.9
39.5930 1418.5
39.6440 1446.2
39.6950 1418.6
39.7460 1420.5
39.7970 1459.0
39.8480 1435.1
39.8990 1427.7
39.9500 1446.1
40.0010 1438.5
40.0520 1392.0
40.1030 1471.6
40.1540 1374.1
40.2050 1450.4
40.2560 1449.4
40.3070 1456.7
40.3580 1468.5
40.4090 1455.8
40.4600 1454.9
40.5110 1412.5
40.5620 1439.2
40.6130 1456.9
40.6640 1452.6
40.7150 1453.7
40.7660 1448.0
40.8170 1463.8
40.8680 1457.7
40.9190 1432.2
40.9700 1448.7
41.0210 1436.5
41.0720 1437.2
41.1230 1494.1
41.1740 1490.1
41.2250 1469.5
41.2760 1505.5
41.3270 1429.4
41.3780 1506.9
41.4290 1509.9
41.4800 1494.0
41.5310 1462.6
41.5820 1456.3
41.6330 1499.8
41.6840 1437.9
41.7350 1504.5
41.7860 1525.3
41.8370 1518.5
41.8880 1512.6
41.9390 1506.1
41.9900 1508.1
42.0410 1536.1
42.0920 1521.8
42.1430 1526.9
42.1940 1511.8
42.2450 1541.8
42.2960 1540.9
42.3470 1537.9
42.3980 1522.9
42.4490 1540.6
42.5000 1501.1
42.5510 1534.4
42.6020 1593.8
42.6530 1546.3
42.7040 1528.6
42.7550 1541.7
42.8060 1593.2
42.8570 1577.2
42.9080 1606.7
42.9590 1674.4
43.0100 1844.6
43.0610 2066.1
43.1120 2220.8
43.1630 3168.9
43.2140 8274.6
43.2650 20925.3
43.3160 14559.9
43.3670 7619.9
43.4180 3302.6
43.4690 2177.2
43.5200 1706.2
43.5710 1726.0
43.6220 1808.2
43.6730 1699.3
43.7240 1628.5
43.7750 1603.5
43.8260 1599.6
43.8770 1605.7
43.9280 1567.6
43.9790 1590.4
44.0300 1545.8
44.0810 1579.5
44.1320 1588.1
44.1830 1553.3
44.2340 1579.0
44.2850 1594.2
44.3360 1559.3
44.3870 1566.7
44.4380 1532.4
44.4890 1541.2
44.5400 1543.9
44.5910 1550.2
44.6420 1536.2
44.6930 1530.8
44.7440 1549.8
44.7950 1559.7
44.8460 1540.6
44.8970 1558.2
44.9480 1527.6
44.9990 1553.2
45.0500 1531.2
45.1010 1574.4
45.1520 1565.2
45.2030 1616.2
45.2540 1693.1
45.3050 1637.8
45.3560 1556.7
45.4070 1560.5
45.4580 1557.7
45.5090 1556.1
45.5600 1550.9
45.6110 1538.8
45.6620 1557.3
45.7130 1592.7
45.7640 1539.1
45.8150 1529.1
45.8660 1532.5
45.9170 1519.1
45.9680 1524.5
46.0190 1543.6
46.0700 1521.6
46.1210 1537.2
46.1720 1576.1
46.2230 1520.2
46.2740 1536.5
46.3250 1567.0
46.3760 1519.1
46.4270 1548.0
46.4780 1529.2
46.5290 1544.0
46.5800 1573.6
46.6310 1502.8
46.6820 1526.3
46.7330 1516.5
46.7840 1537.1
46.8350 1525.1
46.8860 1585.6
46.9370 1514.9
46.9880 1558.1
47.0390 1565.5
47.0900 1516.0
47.1410 1537.4
47.1920 1540.0
47.2430 1593.1
47.2940 1543.3
47.3450 1478.5
47.3960 1539.4
47.4470 1531.1
47.4980 1552.1
47.5490 1517.0
47.6000 1548.5
47.6510 1537.6
47.7020 1526.4
47.7530 1490.4
47.8040 1526.2
47.8550 1507.1
47.9060 1534.7
47.9570 1513.6
48.0080 1519.4
48.0590 1502.9
48.1100 1537.1
48.1610 1519.5
48.2120 1505.9
48.2630 1549.3
48.3140 1499.9
48.3650 1499.1
48.4160 1519.4
48.4670 1520.3
48.5180 1545.2
48.5690 1575.2
48.6200 1661.4
48.6710 1587.0
48.7220 1588.4
48.7730 1594.9
48.8240 1608.4
48.8750 1557.2
48.9260 1576.8
48.9770 1657.4
49.0280 1606.6
49.0790 1724.6
49.1300 1590.9
49.1810 1627.2
49.2320 1623.5
49.2830 1609.6
49.3340 1651.4
49.3850 1620.6
49.4360 1605.5
49.4870 1634.0
49.5380 1638.5
49.5890 1634.4
49.6400 1655.2
49.6910 1723.3
49.7420 1680.4
49.7930 1634.1
49.8440 1653.1
49.8950 1703.3
49.9460 1716.4
49.9970 1711.0
50.0480 1927.6
50.0990 2247.1
50.1500 2619.5
50.2010 2988.1
50.2520 3712.3
50.3030 7899.6
50.3540 31434.3
50.4050 58012.0
50.4560 35180.5
50.5070 12626.8
50.5580 4507.2
50.6090 3311.4
50.6600 2725.6
50.7110 2112.4
50.7620 1795.2
50.8130 1723.9
50.8640 1829.2
50.9150 1810.3
50.9660 1727.9
51.0170 1672.4
51.0680 1687.0
51.1190 1718.5
51.1700 1602.2
51.2210 1624.9
51.2720 1640.6
51.3230 1642.1
51.3740 1585.1
51.4250 1611.0
51.4760 1627.1
51.5270 1621.5
51.5780 1600.8
51.6290 1605.0
51.6800 1563.1
51.7310 1586.2
51.7820 1581.2
51.8330 1604.5
51.8840 1566.8
51.9350 1562.6
51.9860 1564.9
52.0370 1575.6
52.0880 1559.8
52.1390 1590.2
52.1900 1550.2
52.2410 1582.9
52.2920 1568.5
52.3430 1551.4
52.3940 1554.8
52.4450 1564.9
52.4960 1561.2
52.5470 1531.9
52.5980 1566.3
52.6490 1553.2
52.7000 1569.2
52.7510 1539.8
52.8020 1561.6
52.8530 1571.2
52.9040 1553.1
52.9550 1547.6
53.0060 1521.2
53.0570 1529.5
53.1080 1548.4
53.1590 1531.5
53.2100 1517.9
53.2610 1513.9
53.3120 1523.2
53.3630 1521.3
53.4140 1516.4
53.4650 1505.9
53.5160 1523.9
53.5670 1520.4
53.6180 1555.1
53.6690 1549.2
53.7200 1558.0
53.7710 1560.9
53.8220 1528.5
53.8730 1515.2
53.9240 1533.2
53.9750 1544.1
54.0260 1530.4
54.0770 1527.8
54.1280 1552.1
54.1790 1538.0
54.2300 1512.5
54.2810 1530.4
54.3320 1497.4
54.3830 1523.5
54.4340 1537.9
54.4850 1529.8
54.5360 1544.0
54.5870 1555.4
54.6380 1515.4
54.6890 1537.6
54.7400 1576.9
54.7910 1550.2
54.8420 1564.9
54.8930 1555.0
54.9440 1563.6
54.9950 1563.7
55.0460 1536.4
55.0970 1566.6
55.1480 1530.9
55.1990 1503.3
55.2500 1512.5
55.3010 1494.5
55.3520 1521.5
55.4030 1535.6
55.4540 1503.2
55.5050 1547.5
55.5560 1531.0
55.6070 1484.6
55.6580 1517.0
55.7090 1528.0
55.7600 1531.6
55.8110 1536.8
55.8620 1515.8
55.9130 1503.2
55.9640 1522.3
56.0150 1458.6
56.0660 1502.6
56.1170 1514.2
56.1680 1543.5
56.2190 1508.4
56.2700 1520.8
56.3210 1522.1
56.3720 1476.6
56.4230 1508.2
56.4740 1467.4
56.5250 1503.4
56.5760 1509.2
56.6270 1522.5
56.6780 1554.5
56.7290 1502.6
56.7800 1518.2
56.8310 1526.2
56.8820 1506.5
56.9330 1500.8
56.9840 1502.3
57.0350 1519.9
57.0860 1502.4
57.1370 1503.9
57.1880 1501.5
57.2390 1488.4
57.2900 1509.0
57.3410 1450.5
57.3920 1506.1
57.4430 1501.4
57.4940 1524.1
57.5450 1506.8
57.5960 1513.2
57.6470 1482.8
57.6980 1544.1
57.7490 1524.6
57.8000 1503.6
57.8510 1505.2
57.9020 1495.3
57.9530 1517.6
58.0040 1500.4
58.0550 1499.4
58.1060 1479.1
58.1570 1524.2
58.2080 1497.4
58.2590 1510.5
58.3100 1534.6
58.3610 1523.9
58.4120 1520.4
58.4630 1508.6
58.5140 1513.8
58.5650 1523.6
58.6160 1519.1
58.6670 1523.5
58.7180 1495.5
58.7690 1497.6
58.8200 1543.9
58.8710 1508.6
58.9220 1522.6
58.9730 1515.6
59.0240 1475.6
59.0750 1494.9
59.1260 1496.8
59.1770 1548.4
59.2280 1520.1
59.2790 1514.8
59.3300 1527.6
59.3810 1487.6
59.4320 1537.1
59.4830 1496.8
59.5340 1517.1
59.5850 1504.9
59.6360 1512.8
59.6870 1513.5
59.7380 1514.6
59.7890 1469.8
59.8400 1525.8
59.8910 1486.4
59.9420 1542.4
59.9930 1525.4
60.0440 1483.0
60.0950 1505.6
60.1460 1497.8
60.1970 1485.4
60.2480 1521.8
60.2990 1508.9
60.3500 1486.0
60.4010 1514.4
60.4520 1513.9
60.5030 1511.4
60.5540 1547.9
60.6050 1529.9
60.6560 1527.2
60.7070 1463.6
60.7580 1511.3
60.8090 1494.3
60.8600 1516.9
60.9110 1503.4
60.9620 1503.5
61.0130 1496.4
61.0640 1545.2
61.1150 1516.5
61.1660 1523.6
61.2170 1516.3
61.2680 1558.5
61.3190 1486.7
61.3700 1526.8
61.4210 1491.7
61.4720 1492.8
61.5230 1524.9
61.5740 1504.6
61.6250 1485.4
61.6760 1543.8
61.7270 1541.6
61.7780 1548.5
61.8290 1534.1
61.8800 1522.4
61.9310 1511.6
61.9820 1516.6
62.0330 1481.4
62.0840 1517.4
62.1350 1483.0
62.1860 1457.5
62.2370 1505.5
62.2880 1456.9
62.3390 1467.6
62.3900 1509.2
62.4410 1519.8
62.4920 1470.6
62.5430 1491.3
62.5940 1489.1
62.6450 1518.3
62.6960 1487.2
62.7470 1511.6
62.7980 1511.7
62.8490 1498.8
62.9000 1481.2
62.9510 1532.5
63.0020 1468.3
63.0530 1525.2
63.1040 1494.0
63.1550 1491.9
63.2060 1499.5
63.2570 1468.7
63.3080 1517.6
63.3590 1507.6
63.4100 1513.7
63.4610 1516.0
63.5120 1493.4
63.5630 1501.2
63.6140 1496.9
63.6650 1533.2
63.7160 1528.6
63.7670 1496.2
63.8180 1509.4
63.8690 1510.4
63.9200 1505.9
63.9710 1522.6
64.0220 1435.4
64.0730 1539.9
64.1240 1499.3
64.1750 1548.5
64.2260 1544.4
64.2770 1526.5
64.3280 1523.1
64.3790 1522.9
64.4300 1518.5
64.4810 1520.4
64.5320 1531.5
64.5830 1513.1
64.6340 1522.9
64.6850 1511.2
64.7360 1514.4
64.7870 1500.8
64.8380 1508.6
64.8890 1530.9
64.9400 1533.1
64.9910 1512.6
65.0420 1522.2
65.0930 1514.0
65.1440 1519.6
65.1950 1485.3
65.2460 1483.1
65.2970 1483.9
65.3480 1489.2
65.3990 1505.2
65.4500 1514.2
65.5010 1524.1
65.5520 1500.3
65.6030 1497.6
65.6540 1522.9
65.7050 1506.6
65.7560 1516.9
65.8070 1519.8
65.8580 1469.4
65.9090 1545.8
65.9600 1546.3
66.0110 1528.5
66.0620 1487.9
66.1130 1487.0
66.1640 1508.5
66.2150 1488.4
66.2660 1539.2
66.3170 1486.2
66.3680 1521.1
66.4190 1512.8
66.4700 1530.1
66.5210 1532.6
66.5720 1494.6
66.6230 1505.7
66.6740 1522.3
66.7250 1533.1
66.7760 1532.8
66.8270 1530.5
66.8780 1531.1
66.9290 1504.8
66.9800 1528.3
67.0310 1534.2
67.0820 1494.9
67.1330 1512.0
67.1840 1556.6
67.2350 1538.0
67.2860 1492.5
67.3370 1492.2
67.3880 1540.1
67.4390 1502.6
67.4900 1524.9
67.5410 1530.7
67.5920 1487.8
67.6430 1484.1
67.6940 1505.5
67.7450 1548.5
67.7960 1553.9
67.8470 1507.5
67.8980 1521.4
67.9490 1529.0
68.0000 1496.8
68.0510 1495.1
68.1020 1532.5
68.1530 1476.4
68.2040 1471.3
68.2550 1510.4
68.3060 1541.1
68.3570 1522.6
68.4080 1516.5
68.4590 1506.6
68.5100 1527.9
68.5610 1519.1
68.6120 1494.3
68.6630 1500.9
68.7140 1512.2
68.7650 1496.3
68.8160 1504.1
68.8670 1527.6
68.9180 1552.4
68.9690 1524.1
69.0200 1514.8
69.0710 1525.2
69.1220 1528.4
69.1730 1562.1
69.2240 1537.4
69.2750 1523.7
69.3260 1533.3
69.3770 1490.6
69.4280 1523.4
69.4790 1513.9
69.5300 1522.7
69.5810 1559.2
69.6320 1539.9
69.6830 1564.1
69.7340 1515.9
69.7850 1485.9
69.8360 1508.5
69.8870 1477.2
69.9380 1516.6
69.9890 1527.6
70.0400 1526.4
70.0910 1545.3
70.1420 1534.5
70.1930 1506.8
70.2440 1538.5
70.2950 1548.8
70.3460 1535.9
70.3970 1542.9
70.4480 1521.5
70.4990 1551.8
70.5500 1506.6
70.6010 1568.4
70.6520 1530.2
70.7030 1527.2
70.7540 1539.1
70.8050 1533.2
70.8560 1543.4
70.9070 1548.9
70.9580 1539.1
71.0090 1587.8
71.0600 1552.5
71.1110 1555.3
71.1620 1483.1
71.2130 1557.2
71.2640 1573.5
71.3150 1571.9
71.3660 1571.6
71.4170 1543.8
71.4680 1549.9
71.5190 1570.8
71.5700 1552.4
71.6210 1586.1
71.6720 1603.2
71.7230 1548.8
71.7740 1570.9
71.8250 1554.8
71.8760 1542.6
71.9270 1532.8
71.9780 1585.9
72.0290 1573.1
72.0800 1601.4
72.1310 1604.8
72.1820 1549.4
72.2330 1590.0
72.2840 1569.2
72.3350 1548.8
72.3860 1610.6
72.4370 1570.6
72.4880 1576.1
72.5390 1590.6
72.5900 1629.7
72.6410 1569.1
72.6920 1557.1
72.7430 1596.6
72.7940 1612.1
72.8450 1576.2
72.8960 1548.7
72.9470 1611.0
72.9980 1608.8
73.0490 1614.2
73.1000 1567.9
73.1510 1573.9
73.2020 1618.6
73.2530 1598.4
73.3040 1615.5
73.3550 1595.1
73.4060 1617.0
73.4570 1618.1
73.5080 1630.2
73.5590 1629.9
73.6100 1739.3
73.6610 1856.8
73.7120 1952.4
73.7630 2089.7
73.8140 2124.1
73.8650 2282.8
73.9160 2668.6
73.9670 5534.0
74.0180 20628.8
74.0690 25999.2
74.1200 11690.1
74.1710 4254.3
74.2220 2637.4
74.2730 2202.8
74.3240 1985.3
74.3750 1927.1
74.4260 1815.5
74.4770 1831.1
74.5280 1661.6
74.5790 1627.9
74.6300 1684.8
74.6810 1623.4
74.7320 1655.3
74.7830 1616.1
74.8340 1573.2
74.8850 1708.6
74.9360 1712.9
74.9870 1640.1
75.0380 1629.2
75.0890 1614.5
75.1400 1614.2
75.1910 1609.4
75.2420 1598.6
75.2930 1600.3
75.3440 1594.2
75.3950 1681.2
75.4460 1599.6
75.4970 1568.3
75.5480 1595.7
75.5990 1607.2
75.6500 1575.5
75.7010 1595.8
75.7520 1567.4
75.8030 1560.8
75.8540 1603.9
75.9050 1543.8
75.9560 1550.9
76.0070 1567.8
76.0580 1605.9
76.1090 1549.0
76.1600 1574.1
76.2110 1592.0
76.2620 1568.2
76.3130 1599.2
76.3640 1569.3
76.4150 1601.0
76.4660 1567.2
76.5170 1600.2
76.5680 1547.9
76.6190 1572.8
76.6700 1572.1
76.7210 1550.0
76.7720 1609.2
76.8230 1565.0
76.8740 1607.6
76.9250 1577.2
76.9760 1545.1
77.0270 1574.1
77.0780 1573.2
77.1290 1580.4
77.1800 1565.3
77.2310 1537.3
77.2820 1582.9
77.3330 1552.4
77.3840 1535.4
77.4350 1554.5
77.4860 1581.9
77.5370 1575.1
77.5880 1564.2
77.6390 1569.1
77.6900 1595.4
77.7410 1549.2
77.7920 1565.6
77.8430 1549.4
77.8940 1538.9
77.9450 1563.9
77.9960 1565.3
78.0470 1539.9
78.0980 1590.6
78.1490 1590.9
78.2000 1565.4
78.2510 1554.9
78.3020 1549.4
78.3530 1554.3
78.4040 1567.9
78.4550 1531.5
78.5060 1563.9
78.5570 1578.9
78.6080 1576.5
78.6590 1579.5
78.7100 1548.8
78.7610 1570.8
78.8120 1559.4
78.8630 1603.8
78.9140 1571.5
78.9650 1548.4
79.0160 1561.6
79.0670 1549.5
79.1180 1551.7
79.1690 1581.8
79.2200 1591.2
79.2710 1573.3
79.3220 1589.9
79.3730 1590.6
79.4240 1595.6
79.4750 1567.3
79.5260 1570.1
79.5770 1550.5
79.6280 1580.5
79.6790 1585.9
79.7300 1591.4
79.7810 1665.4
79.8320 1537.2
79.8830 1561.0
79.9340 1537.8
79.9680 1569.5